SpectraSuite Datei
++++++++++++++++++++++++++++++++++++
Datum: Mon Feb 18 16:08:51 CET 2019
Benutzer: tu65fis
Dark-Spektrum vorhanden: Ja
Referenz-Spektrum vorhanden: Ja
Zahl der probierten Teilspektren: 1
Spektrometer: USB2G47534
Integrationszeit (usec): 400000 (USB2G47534)
Spektren Durchschnitt berechnet: 1 (USB2G47534)
Boxcar Glättung: 0 (USB2G47534)
Dunkelstromkorrektur: Nein (USB2G47534)
Puls/Lampe aktiviert: Nein (USB2G47534)
Correct for Detector Non-linearity: Nein (USB2G47534)
Streulichtkorrektur: Nein (USB2G47534)
Anzahl Pixel in verarbeitetem Spektrum: 651
>>>>>Begin Processed Spectral Data<<<<<
350,00	-2,97
351,00	-2,73
352,00	-10,69
353,00	-7,64
354,00	-9,52
355,00	-2,29
356,00	-0,00
357,00	1,16
358,00	-9,59
359,00	-10,95
360,00	-6,77
361,00	-9,64
362,00	1,37
363,00	-10,99
364,00	1,32
365,00	-8,68
366,00	1,63
367,00	-0,62
368,00	5,68
369,00	-7,47
370,00	-5,18
371,00	-6,00
372,00	4,86
373,00	-1,30
374,00	-4,31
375,00	2,46
376,00	1,06
377,00	-1,64
378,00	7,10
379,00	-4,39
380,00	-2,06
381,00	2,95
382,00	55,96
383,00	1,96
384,00	-0,43
385,00	-7,65
386,00	-4,89
387,00	-2,40
388,00	-3,02
389,00	4,71
390,00	-4,67
391,00	-5,14
392,00	-0,86
393,00	-12,92
394,00	-10,25
395,00	-6,38
396,00	2,08
397,00	1,36
398,00	-3,73
399,00	-2,63
400,00	-2,51
401,00	6,53
402,00	-4,11
403,00	-2,79
404,00	-0,22
405,00	5,48
406,00	-2,18
407,00	0,23
408,00	4,22
409,00	1,95
410,00	-2,53
411,00	-0,32
412,00	-4,78
413,00	1,58
414,00	-5,15
415,00	5,40
416,00	2,78
417,00	6,39
418,00	6,04
419,00	3,95
420,00	2,62
421,00	-7,04
422,00	5,09
423,00	6,08
424,00	17,05
425,00	6,91
426,00	18,69
427,00	8,07
428,00	9,30
429,00	13,62
430,00	25,24
431,00	25,51
432,00	34,61
433,00	32,77
434,00	62,06
435,00	106,87
436,00	119,63
437,00	97,98
438,00	95,83
439,00	112,75
440,00	144,59
441,00	179,21
442,00	196,63
443,00	230,74
444,00	275,58
445,00	320,43
446,00	356,83
447,00	423,39
448,00	521,61
449,00	601,01
450,00	712,58
451,00	769,54
452,00	923,34
453,00	1061,97
454,00	1179,02
455,00	1334,45
456,00	1482,34
457,00	1564,16
458,00	1694,50
459,00	1912,16
460,00	2015,87
461,00	2037,87
462,00	2150,20
463,00	2183,57
464,00	2161,39
465,00	2286,83
466,00	2265,70
467,00	2252,01
468,00	2147,42
469,00	2159,88
470,00	2069,69
471,00	1933,92
472,00	1839,63
473,00	1817,72
474,00	1709,15
475,00	1547,98
476,00	1528,22
477,00	1427,27
478,00	1387,58
479,00	1262,36
480,00	1160,99
481,00	1113,44
482,00	1036,84
483,00	984,30
484,00	900,58
485,00	850,08
486,00	817,05
487,00	751,72
488,00	694,38
489,00	659,01
490,00	603,14
491,00	553,67
492,00	509,12
493,00	470,05
494,00	423,26
495,00	395,54
496,00	367,30
497,00	327,76
498,00	296,60
499,00	286,55
500,00	256,89
501,00	226,93
502,00	215,84
503,00	195,33
504,00	176,24
505,00	160,15
506,00	137,45
507,00	134,29
508,00	124,46
509,00	106,08
510,00	107,34
511,00	91,56
512,00	84,33
513,00	81,00
514,00	71,97
515,00	64,56
516,00	61,08
517,00	50,00
518,00	47,33
519,00	53,01
520,00	43,28
521,00	38,69
522,00	32,93
523,00	37,15
524,00	39,23
525,00	29,99
526,00	32,11
527,00	30,42
528,00	19,53
529,00	21,94
530,00	18,00
531,00	23,71
532,00	24,90
533,00	23,36
534,00	14,16
535,00	15,02
536,00	20,19
537,00	26,15
538,00	50,18
539,00	41,93
540,00	65,34
541,00	100,93
542,00	170,10
543,00	203,55
544,00	202,51
545,00	212,97
546,00	207,84
547,00	122,85
548,00	77,04
549,00	65,93
550,00	50,48
551,00	48,31
552,00	45,66
553,00	31,05
554,00	27,76
555,00	15,84
556,00	8,41
557,00	26,42
558,00	10,72
559,00	10,75
560,00	4,75
561,00	6,28
562,00	-0,04
563,00	12,12
564,00	0,63
565,00	2,60
566,00	-0,52
567,00	6,29
568,00	2,37
569,00	8,83
570,00	9,54
571,00	6,61
572,00	3,56
573,00	6,21
574,00	5,96
575,00	-6,07
576,00	12,26
577,00	20,31
578,00	23,69
579,00	25,34
580,00	23,03
581,00	27,78
582,00	21,73
583,00	31,52
584,00	42,16
585,00	28,01
586,00	37,99
587,00	45,46
588,00	32,80
589,00	38,10
590,00	35,26
591,00	19,87
592,00	24,57
593,00	21,89
594,00	22,65
595,00	14,01
596,00	11,50
597,00	12,34
598,00	12,41
599,00	28,36
600,00	36,38
601,00	15,19
602,00	13,10
603,00	3,81
604,00	1,53
605,00	7,89
606,00	10,53
607,00	11,39
608,00	19,02
609,00	44,27
610,00	95,55
611,00	199,96
612,00	151,11
613,00	102,70
614,00	67,09
615,00	54,02
616,00	35,37
617,00	19,71
618,00	19,61
619,00	21,87
620,00	22,01
621,00	29,43
622,00	22,73
623,00	17,30
624,00	18,31
625,00	13,21
626,00	21,94
627,00	12,74
628,00	9,03
629,00	14,66
630,00	27,11
631,00	12,40
632,00	13,87
633,00	5,32
634,00	0,83
635,00	7,28
636,00	4,98
637,00	2,44
638,00	-1,71
639,00	1,88
640,00	-3,35
641,00	2,93
642,00	-1,99
643,00	3,87
644,00	172,60
645,00	15,92
646,00	-1,80
647,00	4,71
648,00	5,87
649,00	-0,30
650,00	8,59
651,00	1,93
652,00	12,42
653,00	-0,71
654,00	-0,48
655,00	-8,08
656,00	-1,54
657,00	3,41
658,00	-14,41
659,00	-0,00
660,00	-1,65
661,00	-0,76
662,00	1,75
663,00	-4,17
664,00	19,02
665,00	-0,90
666,00	-2,29
667,00	7,16
668,00	2,52
669,00	4,73
670,00	-2,68
671,00	1,24
672,00	6,85
673,00	10,57
674,00	0,96
675,00	3,48
676,00	-2,67
677,00	2,14
678,00	10,21
679,00	-8,92
680,00	-1,28
681,00	3,40
682,00	0,67
683,00	7,72
684,00	-6,19
685,00	-7,56
686,00	0,60
687,00	1,65
688,00	-8,06
689,00	4,43
690,00	-5,34
691,00	-2,24
692,00	10,19
693,00	-1,56
694,00	-6,56
695,00	-8,81
696,00	-7,97
697,00	-0,08
698,00	-3,13
699,00	17,93
700,00	4,74
701,00	1,08
702,00	-1,42
703,00	-7,03
704,00	-1,39
705,00	-3,58
706,00	7,72
707,00	0,54
708,00	4,23
709,00	5,20
710,00	11,73
711,00	-1,44
712,00	1,21
713,00	-2,48
714,00	-1,05
715,00	-1,24
716,00	2,67
717,00	-5,09
718,00	-1,77
719,00	-0,82
720,00	9,29
721,00	136,21
722,00	-7,49
723,00	11,46
724,00	-1,65
725,00	-3,66
726,00	-1,71
727,00	-7,28
728,00	-7,60
729,00	-1,52
730,00	-1,46
731,00	-8,06
732,00	-0,83
733,00	-5,49
734,00	-3,08
735,00	16,67
736,00	-0,56
737,00	-0,00
738,00	-7,00
739,00	39,00
740,00	-8,86
741,00	0,42
742,00	0,36
743,00	0,70
744,00	-9,10
745,00	1,35
746,00	-4,95
747,00	1,42
748,00	29,45
749,00	-5,92
750,00	-5,19
751,00	-4,43
752,00	-5,05
753,00	-2,96
754,00	-6,76
755,00	-9,41
756,00	-2,71
757,00	-1,81
758,00	0,74
759,00	-2,92
760,00	-2,03
761,00	-0,67
762,00	-0,74
763,00	-7,98
764,00	-5,71
765,00	-5,48
766,00	-6,65
767,00	-4,60
768,00	-1,53
769,00	-5,69
770,00	-4,79
771,00	1,08
772,00	-4,25
773,00	-3,41
774,00	-6,50
775,00	-10,50
776,00	0,93
777,00	-3,38
778,00	-9,53
779,00	-11,11
780,00	2,11
781,00	6,41
782,00	-9,81
783,00	-0,61
784,00	-10,10
785,00	6,04
786,00	-1,14
787,00	-5,22
788,00	-9,49
789,00	-7,96
790,00	4,36
791,00	-3,13
792,00	-1,47
793,00	-5,45
794,00	-5,78
795,00	2,08
796,00	1,66
797,00	-2,48
798,00	-5,31
799,00	-6,15
800,00	-6,76
801,00	-1,36
802,00	-0,16
803,00	-4,35
804,00	-6,90
805,00	17,34
806,00	4,51
807,00	-4,52
808,00	-7,20
809,00	-6,97
810,00	4,16
811,00	-1,85
812,00	-2,52
813,00	0,32
814,00	-5,34
815,00	-5,99
816,00	3,36
817,00	-6,61
818,00	-4,71
819,00	-3,96
820,00	-3,41
821,00	0,51
822,00	7,99
823,00	-5,25
824,00	0,75
825,00	3,31
826,00	-5,21
827,00	-10,18
828,00	-11,38
829,00	-17,40
830,00	4,39
831,00	30,59
832,00	3,35
833,00	5,10
834,00	-7,63
835,00	4,27
836,00	-9,91
837,00	-6,97
838,00	-6,62
839,00	-4,08
840,00	-2,16
841,00	5,46
842,00	-4,05
843,00	-5,05
844,00	-1,30
845,00	-8,49
846,00	-5,35
847,00	-4,44
848,00	1,96
849,00	-11,03
850,00	-5,18
851,00	-5,08
852,00	-3,64
853,00	0,72
854,00	-8,17
855,00	3,98
856,00	-2,40
857,00	1,54
858,00	-3,30
859,00	-5,16
860,00	-10,93
861,00	2,19
862,00	-4,04
863,00	-4,36
864,00	-1,64
865,00	-0,56
866,00	-0,01
867,00	16,53
868,00	-4,13
869,00	1,77
870,00	-7,88
871,00	-2,25
872,00	-0,14
873,00	-0,08
874,00	-5,99
875,00	-2,91
876,00	-5,43
877,00	-3,91
878,00	-6,66
879,00	3,68
880,00	3,25
881,00	-4,60
882,00	-3,36
883,00	-3,49
884,00	-3,31
885,00	-6,81
886,00	-6,29
887,00	-6,12
888,00	16,51
889,00	-8,70
890,00	-3,13
891,00	-3,32
892,00	5,00
893,00	1,50
894,00	-1,52
895,00	-6,45
896,00	-3,11
897,00	6,74
898,00	5,54
899,00	4,70
900,00	-7,74
901,00	-0,63
902,00	-5,45
903,00	-4,76
904,00	3,13
905,00	-2,93
906,00	-2,10
907,00	-1,38
908,00	-2,06
909,00	-3,43
910,00	-5,01
911,00	-3,98
912,00	-2,56
913,00	-0,74
914,00	-13,05
915,00	0,90
916,00	-7,86
917,00	-8,46
918,00	-10,62
919,00	4,42
920,00	4,46
921,00	-6,19
922,00	-0,28
923,00	-2,57
924,00	7,40
925,00	0,36
926,00	-1,69
927,00	-4,01
928,00	-7,95
929,00	0,61
930,00	-0,76
931,00	-2,61
932,00	-4,24
933,00	-3,90
934,00	-8,01
935,00	-8,22
936,00	-4,38
937,00	-0,80
938,00	-7,44
939,00	-2,49
940,00	1,31
941,00	1,39
942,00	1,15
943,00	-5,76
944,00	-7,39
945,00	-12,13
946,00	2,35
947,00	3,15
948,00	-0,53
949,00	13,47
950,00	22,26
951,00	-5,68
952,00	4,99
953,00	-0,69
954,00	-3,89
955,00	-9,71
956,00	0,65
957,00	-3,48
958,00	3,13
959,00	-10,30
960,00	-1,60
961,00	3,27
962,00	-1,04
963,00	2,54
964,00	-9,35
965,00	2,82
966,00	6,33
967,00	-0,58
968,00	1,90
969,00	-10,40
970,00	0,73
971,00	-0,99
972,00	0,67
973,00	-16,74
974,00	-8,75
975,00	-3,41
976,00	-5,19
977,00	-1,09
978,00	-2,67
979,00	-1,91
980,00	-3,05
981,00	4,82
982,00	0,68
983,00	-7,17
984,00	-2,23
985,00	-1,18
986,00	-8,11
987,00	-11,09
988,00	-8,66
989,00	-6,87
990,00	-7,49
991,00	9,11
992,00	0,57
993,00	-4,85
994,00	0,37
995,00	-4,90
996,00	-4,61
997,00	-6,93
998,00	1,18
999,00	-0,08
1000,00	-1,84
>>>>>End Processed Spectral Data<<<<<
