SpectraSuite Datei
++++++++++++++++++++++++++++++++++++
Datum: Mon Feb 18 16:05:47 CET 2019
Benutzer: tu65fis
Dark-Spektrum vorhanden: Ja
Referenz-Spektrum vorhanden: Ja
Zahl der probierten Teilspektren: 1
Spektrometer: USB2G47534
Integrationszeit (usec): 10000 (USB2G47534)
Spektren Durchschnitt berechnet: 1 (USB2G47534)
Boxcar Glättung: 0 (USB2G47534)
Dunkelstromkorrektur: Nein (USB2G47534)
Puls/Lampe aktiviert: Nein (USB2G47534)
Correct for Detector Non-linearity: Nein (USB2G47534)
Streulichtkorrektur: Nein (USB2G47534)
Anzahl Pixel in verarbeitetem Spektrum: 651
>>>>>Begin Processed Spectral Data<<<<<
350,00	-8,02
351,00	-4,83
352,00	-12,31
353,00	-5,66
354,00	-10,96
355,00	-12,93
356,00	-6,23
357,00	-1,09
358,00	-10,34
359,00	-5,95
360,00	-17,26
361,00	-13,10
362,00	-0,79
363,00	-2,03
364,00	2,07
365,00	-7,56
366,00	-6,91
367,00	-9,81
368,00	-4,88
369,00	-9,77
370,00	-8,43
371,00	-6,03
372,00	-8,68
373,00	-5,16
374,00	-7,40
375,00	-5,94
376,00	1,40
377,00	-5,61
378,00	-1,55
379,00	-8,27
380,00	-4,45
381,00	-4,03
382,00	3,03
383,00	3,40
384,00	-5,51
385,00	-13,44
386,00	-5,50
387,00	-9,04
388,00	-10,31
389,00	-0,98
390,00	-1,18
391,00	-3,03
392,00	-1,62
393,00	-11,93
394,00	-1,49
395,00	-1,74
396,00	1,66
397,00	0,22
398,00	-3,92
399,00	2,42
400,00	-5,68
401,00	11,43
402,00	0,65
403,00	53,65
404,00	237,10
405,00	223,00
406,00	65,21
407,00	25,09
408,00	29,76
409,00	17,46
410,00	14,02
411,00	15,23
412,00	12,18
413,00	18,57
414,00	16,72
415,00	21,78
416,00	28,47
417,00	21,53
418,00	34,25
419,00	30,74
420,00	37,02
421,00	32,99
422,00	38,78
423,00	50,74
424,00	66,79
425,00	55,63
426,00	66,61
427,00	66,56
428,00	71,91
429,00	70,66
430,00	87,14
431,00	102,37
432,00	97,38
433,00	113,67
434,00	223,99
435,00	1528,70
436,00	1116,44
437,00	647,09
438,00	122,16
439,00	124,27
440,00	119,96
441,00	122,22
442,00	124,55
443,00	129,82
444,00	141,63
445,00	138,07
446,00	122,54
447,00	129,22
448,00	140,41
449,00	133,96
450,00	145,63
451,00	117,92
452,00	131,39
453,00	138,13
454,00	130,89
455,00	134,28
456,00	117,21
457,00	114,72
458,00	113,36
459,00	121,66
460,00	118,30
461,00	115,09
462,00	117,51
463,00	111,66
464,00	109,58
465,00	123,48
466,00	116,98
467,00	112,43
468,00	107,08
469,00	114,12
470,00	112,10
471,00	105,46
472,00	104,69
473,00	102,32
474,00	104,17
475,00	92,41
476,00	108,01
477,00	98,16
478,00	115,01
479,00	107,87
480,00	127,83
481,00	154,68
482,00	207,69
483,00	287,73
484,00	429,66
485,00	608,30
486,00	729,30
487,00	817,60
488,00	816,94
489,00	802,08
490,00	739,35
491,00	697,23
492,00	628,00
493,00	570,77
494,00	502,38
495,00	439,25
496,00	414,65
497,00	396,60
498,00	337,01
499,00	270,54
500,00	203,04
501,00	145,04
502,00	113,63
503,00	91,87
504,00	79,62
505,00	60,08
506,00	51,53
507,00	50,60
508,00	42,79
509,00	38,12
510,00	39,56
511,00	43,74
512,00	38,33
513,00	40,01
514,00	40,43
515,00	36,05
516,00	38,14
517,00	28,34
518,00	25,25
519,00	25,15
520,00	16,76
521,00	20,89
522,00	22,35
523,00	23,16
524,00	28,52
525,00	29,56
526,00	21,94
527,00	22,76
528,00	39,07
529,00	37,82
530,00	36,00
531,00	41,18
532,00	60,58
533,00	109,56
534,00	104,24
535,00	121,95
536,00	160,31
537,00	248,80
538,00	437,00
539,00	670,21
540,00	1039,81
541,00	2007,24
542,00	3412,17
543,00	3836,31
544,00	3840,09
545,00	3841,28
546,00	3825,46
547,00	2284,22
548,00	1405,88
549,00	1198,59
550,00	1025,56
551,00	893,23
552,00	780,69
553,00	608,53
554,00	399,59
555,00	239,32
556,00	148,59
557,00	117,42
558,00	100,70
559,00	80,97
560,00	67,68
561,00	56,66
562,00	58,12
563,00	46,95
564,00	39,86
565,00	31,02
566,00	26,08
567,00	26,89
568,00	32,13
569,00	33,90
570,00	39,20
571,00	38,15
572,00	36,45
573,00	62,70
574,00	65,00
575,00	78,46
576,00	276,91
577,00	335,52
578,00	362,75
579,00	495,93
580,00	554,60
581,00	486,37
582,00	523,49
583,00	685,29
584,00	709,89
585,00	633,80
586,00	671,10
587,00	892,70
588,00	767,38
589,00	608,59
590,00	495,57
591,00	425,25
592,00	471,86
593,00	501,24
594,00	357,41
595,00	228,56
596,00	176,07
597,00	181,00
598,00	226,28
599,00	282,27
600,00	277,10
601,00	191,80
602,00	143,55
603,00	122,02
604,00	123,88
605,00	146,81
606,00	173,06
607,00	225,18
608,00	354,90
609,00	633,40
610,00	2016,73
611,00	3862,17
612,00	3025,43
613,00	2045,56
614,00	1387,14
615,00	1029,44
616,00	713,42
617,00	530,65
618,00	469,24
619,00	497,33
620,00	551,39
621,00	522,81
622,00	466,54
623,00	401,89
624,00	373,14
625,00	320,46
626,00	281,34
627,00	248,30
628,00	253,54
629,00	286,93
630,00	433,04
631,00	460,55
632,00	285,72
633,00	144,07
634,00	78,53
635,00	62,73
636,00	54,41
637,00	48,87
638,00	37,23
639,00	42,44
640,00	42,97
641,00	38,88
642,00	40,84
643,00	43,03
644,00	41,91
645,00	51,63
646,00	47,41
647,00	47,23
648,00	57,53
649,00	70,50
650,00	132,17
651,00	109,02
652,00	78,98
653,00	59,14
654,00	42,64
655,00	25,34
656,00	30,33
657,00	33,00
658,00	32,61
659,00	24,91
660,00	20,59
661,00	39,12
662,00	64,34
663,00	55,22
664,00	43,87
665,00	37,17
666,00	30,90
667,00	35,88
668,00	34,45
669,00	31,00
670,00	24,15
671,00	24,76
672,00	17,34
673,00	25,53
674,00	19,06
675,00	20,47
676,00	17,79
677,00	16,53
678,00	23,71
679,00	17,42
680,00	18,67
681,00	27,45
682,00	24,10
683,00	16,59
684,00	15,02
685,00	8,63
686,00	17,41
687,00	41,65
688,00	34,58
689,00	22,63
690,00	15,10
691,00	8,55
692,00	12,45
693,00	33,20
694,00	22,31
695,00	12,71
696,00	3,98
697,00	-1,02
698,00	6,80
699,00	4,66
700,00	5,84
701,00	3,64
702,00	8,03
703,00	11,42
704,00	16,56
705,00	40,34
706,00	87,35
707,00	94,72
708,00	121,03
709,00	108,20
710,00	64,84
711,00	62,96
712,00	93,16
713,00	47,28
714,00	18,89
715,00	10,76
716,00	3,56
717,00	-4,79
718,00	1,76
719,00	3,43
720,00	-3,47
721,00	-9,24
722,00	-7,87
723,00	-2,42
724,00	0,90
725,00	-6,50
726,00	-5,27
727,00	-4,79
728,00	-2,75
729,00	3,15
730,00	-3,70
731,00	-6,25
732,00	-6,72
733,00	-8,70
734,00	-2,76
735,00	9,82
736,00	-23,09
737,00	-2,93
738,00	-2,01
739,00	-3,87
740,00	-7,71
741,00	0,72
742,00	-0,21
743,00	-5,78
744,00	-8,98
745,00	1,79
746,00	-5,75
747,00	-1,87
748,00	-6,47
749,00	-1,53
750,00	-7,48
751,00	-4,95
752,00	-3,29
753,00	-2,25
754,00	-11,55
755,00	-9,48
756,00	-4,20
757,00	-4,72
758,00	-3,95
759,00	-3,82
760,00	-5,03
761,00	2,98
762,00	-7,86
763,00	-12,69
764,00	-6,15
765,00	-6,96
766,00	-7,45
767,00	-0,96
768,00	-6,16
769,00	-9,24
770,00	-1,96
771,00	-3,57
772,00	-0,32
773,00	-6,08
774,00	-2,70
775,00	-9,09
776,00	-1,50
777,00	2,04
778,00	-12,74
779,00	-9,59
780,00	-3,33
781,00	-9,47
782,00	-10,40
783,00	-9,49
784,00	-7,00
785,00	2,46
786,00	-10,33
787,00	-4,47
788,00	-6,78
789,00	0,07
790,00	-5,18
791,00	-10,78
792,00	-4,32
793,00	-2,89
794,00	-6,32
795,00	-1,57
796,00	0,80
797,00	-3,97
798,00	-5,91
799,00	-6,28
800,00	-5,89
801,00	-7,26
802,00	-7,69
803,00	-7,23
804,00	-8,49
805,00	-7,19
806,00	7,35
807,00	-4,35
808,00	-9,04
809,00	-6,97
810,00	-3,95
811,00	-11,91
812,00	-4,77
813,00	-8,32
814,00	-8,22
815,00	-5,58
816,00	-1,12
817,00	-2,40
818,00	-6,86
819,00	-5,41
820,00	-12,20
821,00	-5,65
822,00	-3,01
823,00	0,04
824,00	-0,36
825,00	1,76
826,00	-7,30
827,00	-14,81
828,00	-6,05
829,00	-7,98
830,00	-10,16
831,00	-1,81
832,00	-10,59
833,00	-1,16
834,00	-8,98
835,00	-10,86
836,00	-6,93
837,00	0,82
838,00	-11,66
839,00	-3,08
840,00	-6,49
841,00	5,22
842,00	-3,30
843,00	-14,57
844,00	-2,07
845,00	-10,68
846,00	-3,89
847,00	1,69
848,00	-5,56
849,00	-11,23
850,00	-4,68
851,00	-12,14
852,00	0,12
853,00	-2,31
854,00	-10,49
855,00	-9,87
856,00	-8,10
857,00	-2,70
858,00	-5,36
859,00	-6,88
860,00	-9,55
861,00	-4,28
862,00	-4,97
863,00	-2,57
864,00	-7,99
865,00	-12,72
866,00	-19,08
867,00	-5,92
868,00	-7,00
869,00	-2,08
870,00	-12,99
871,00	-14,06
872,00	-12,34
873,00	-3,61
874,00	-6,01
875,00	-4,97
876,00	-6,24
877,00	-9,04
878,00	-12,74
879,00	-0,66
880,00	-8,04
881,00	-10,28
882,00	-3,92
883,00	0,27
884,00	-4,55
885,00	-7,93
886,00	-10,39
887,00	-6,01
888,00	-6,93
889,00	-4,92
890,00	-2,71
891,00	-7,24
892,00	-1,01
893,00	-8,19
894,00	-4,54
895,00	-2,94
896,00	-5,27
897,00	-6,08
898,00	-5,34
899,00	0,69
900,00	-4,38
901,00	-9,42
902,00	-10,01
903,00	-2,03
904,00	-2,14
905,00	-3,26
906,00	-3,52
907,00	-9,54
908,00	-6,01
909,00	-8,09
910,00	-6,04
911,00	-7,99
912,00	-5,67
913,00	-9,51
914,00	-14,09
915,00	-4,90
916,00	-0,18
917,00	-6,16
918,00	-10,10
919,00	-3,23
920,00	-3,89
921,00	-8,56
922,00	-1,57
923,00	-6,91
924,00	-10,04
925,00	-5,29
926,00	-2,14
927,00	-7,99
928,00	-12,13
929,00	-4,44
930,00	-5,70
931,00	-8,29
932,00	-8,74
933,00	-11,15
934,00	-6,46
935,00	-10,80
936,00	-4,85
937,00	-2,27
938,00	-3,30
939,00	-16,20
940,00	-6,54
941,00	-1,78
942,00	2,50
943,00	-2,97
944,00	-11,06
945,00	-10,95
946,00	-0,04
947,00	-5,57
948,00	-0,54
949,00	-5,66
950,00	-10,08
951,00	-8,56
952,00	10,50
953,00	-7,57
954,00	-6,21
955,00	-13,62
956,00	-7,58
957,00	-4,39
958,00	-9,11
959,00	-8,30
960,00	-5,81
961,00	-11,35
962,00	-7,06
963,00	-3,53
964,00	-11,91
965,00	-4,79
966,00	-2,62
967,00	-6,39
968,00	-1,89
969,00	-13,48
970,00	-4,91
971,00	-6,69
972,00	-5,15
973,00	-17,60
974,00	-9,19
975,00	-7,08
976,00	-8,92
977,00	-8,13
978,00	-5,47
979,00	0,16
980,00	-4,00
981,00	-0,15
982,00	-3,21
983,00	-7,95
984,00	-11,14
985,00	-7,92
986,00	-5,05
987,00	-14,03
988,00	-6,87
989,00	-19,18
990,00	-11,13
991,00	-0,49
992,00	-0,90
993,00	-8,53
994,00	-7,08
995,00	-4,04
996,00	4,81
997,00	-4,73
998,00	-3,82
999,00	-5,93
1000,00	2,25
>>>>>End Processed Spectral Data<<<<<
