SpectraSuite Datei
++++++++++++++++++++++++++++++++++++
Datum: Mon Feb 18 16:06:49 CET 2019
Benutzer: tu65fis
Dark-Spektrum vorhanden: Ja
Referenz-Spektrum vorhanden: Ja
Zahl der probierten Teilspektren: 1
Spektrometer: USB2G47534
Integrationszeit (usec): 10000 (USB2G47534)
Spektren Durchschnitt berechnet: 1 (USB2G47534)
Boxcar Glättung: 0 (USB2G47534)
Dunkelstromkorrektur: Nein (USB2G47534)
Puls/Lampe aktiviert: Nein (USB2G47534)
Correct for Detector Non-linearity: Nein (USB2G47534)
Streulichtkorrektur: Nein (USB2G47534)
Anzahl Pixel in verarbeitetem Spektrum: 651
>>>>>Begin Processed Spectral Data<<<<<
350,00	-5,06
351,00	-1,27
352,00	-5,72
353,00	-4,81
354,00	-7,73
355,00	-9,15
356,00	-1,48
357,00	0,00
358,00	-6,84
359,00	-8,69
360,00	-6,02
361,00	-4,19
362,00	-1,97
363,00	-8,02
364,00	6,81
365,00	-5,45
366,00	-4,92
367,00	-0,68
368,00	-0,41
369,00	-4,85
370,00	-2,91
371,00	-2,98
372,00	-1,79
373,00	-1,63
374,00	-2,72
375,00	-7,81
376,00	2,11
377,00	-2,09
378,00	-4,94
379,00	-7,12
380,00	-5,00
381,00	-2,89
382,00	3,21
383,00	5,87
384,00	-3,49
385,00	-9,98
386,00	-6,85
387,00	-7,13
388,00	-3,68
389,00	3,23
390,00	-5,82
391,00	1,24
392,00	-1,41
393,00	-2,01
394,00	-3,09
395,00	-2,29
396,00	0,71
397,00	2,30
398,00	0,71
399,00	0,14
400,00	-3,80
401,00	11,97
402,00	-1,43
403,00	3,30
404,00	11,23
405,00	5,32
406,00	10,36
407,00	12,71
408,00	20,49
409,00	28,00
410,00	36,29
411,00	43,64
412,00	56,80
413,00	61,64
414,00	81,71
415,00	91,30
416,00	123,73
417,00	151,22
418,00	196,34
419,00	221,70
420,00	257,15
421,00	295,33
422,00	345,30
423,00	402,59
424,00	457,15
425,00	481,32
426,00	569,64
427,00	629,68
428,00	674,40
429,00	738,63
430,00	899,27
431,00	946,14
432,00	1076,18
433,00	1197,96
434,00	1268,22
435,00	1341,67
436,00	1535,86
437,00	1595,23
438,00	1751,60
439,00	1918,01
440,00	1960,95
441,00	2064,04
442,00	2134,25
443,00	2168,69
444,00	2056,19
445,00	1967,54
446,00	1667,42
447,00	1494,34
448,00	1381,12
449,00	1186,08
450,00	1021,91
451,00	804,67
452,00	767,49
453,00	696,18
454,00	579,50
455,00	545,59
456,00	489,84
457,00	433,02
458,00	392,78
459,00	380,40
460,00	353,82
461,00	297,50
462,00	274,75
463,00	251,27
464,00	222,95
465,00	210,94
466,00	179,74
467,00	168,65
468,00	148,32
469,00	154,08
470,00	138,38
471,00	128,48
472,00	115,15
473,00	127,38
474,00	120,94
475,00	109,55
476,00	119,85
477,00	99,62
478,00	121,10
479,00	114,59
480,00	106,49
481,00	116,31
482,00	119,07
483,00	123,20
484,00	132,68
485,00	138,12
486,00	155,79
487,00	170,23
488,00	193,60
489,00	212,78
490,00	235,05
491,00	268,27
492,00	303,85
493,00	335,08
494,00	378,87
495,00	427,93
496,00	489,44
497,00	551,56
498,00	609,39
499,00	664,36
500,00	762,13
501,00	844,83
502,00	935,70
503,00	1015,07
504,00	1121,32
505,00	1226,43
506,00	1313,42
507,00	1425,59
508,00	1513,11
509,00	1633,01
510,00	1744,69
511,00	1831,69
512,00	1952,49
513,00	2040,97
514,00	2143,29
515,00	2240,19
516,00	2311,91
517,00	2382,41
518,00	2499,87
519,00	2550,06
520,00	2630,31
521,00	2685,21
522,00	2741,52
523,00	2809,66
524,00	2858,57
525,00	2922,26
526,00	2972,96
527,00	3003,87
528,00	3062,13
529,00	3134,59
530,00	3130,03
531,00	3191,84
532,00	3178,11
533,00	3260,18
534,00	3269,76
535,00	3324,37
536,00	3325,91
537,00	3341,76
538,00	3391,09
539,00	3364,99
540,00	3427,82
541,00	3453,10
542,00	3489,96
543,00	3522,73
544,00	3534,84
545,00	3515,76
546,00	3557,53
547,00	3562,37
548,00	3562,71
549,00	3573,80
550,00	3582,09
551,00	3586,07
552,00	3586,68
553,00	3589,24
554,00	3615,14
555,00	3627,71
556,00	3623,73
557,00	3617,72
558,00	3640,17
559,00	3623,12
560,00	3622,70
561,00	3645,49
562,00	3607,13
563,00	3617,82
564,00	3635,87
565,00	3621,67
566,00	3570,74
567,00	3602,88
568,00	3575,30
569,00	3576,44
570,00	3555,69
571,00	3548,82
572,00	3524,79
573,00	3542,76
574,00	3546,74
575,00	3466,46
576,00	3474,74
577,00	3457,36
578,00	3418,18
579,00	3422,22
580,00	3400,86
581,00	3406,34
582,00	3359,04
583,00	3375,20
584,00	3341,91
585,00	3317,97
586,00	3293,96
587,00	3315,86
588,00	3268,14
589,00	3244,07
590,00	3219,74
591,00	3189,63
592,00	3167,94
593,00	3118,10
594,00	3118,95
595,00	3074,92
596,00	3053,64
597,00	3024,83
598,00	3016,11
599,00	2981,88
600,00	2953,42
601,00	2943,95
602,00	2882,78
603,00	2861,17
604,00	2838,22
605,00	2782,04
606,00	2768,23
607,00	2692,87
608,00	2701,24
609,00	2641,28
610,00	2591,25
611,00	2569,85
612,00	2532,25
613,00	2508,66
614,00	2438,56
615,00	2400,04
616,00	2352,24
617,00	2293,81
618,00	2233,30
619,00	2218,56
620,00	2173,27
621,00	2126,28
622,00	2080,26
623,00	2004,05
624,00	1975,87
625,00	1963,69
626,00	1903,58
627,00	1851,13
628,00	1813,71
629,00	1773,34
630,00	1712,41
631,00	1686,46
632,00	1638,78
633,00	1588,90
634,00	1568,41
635,00	1512,36
636,00	1483,13
637,00	1445,30
638,00	1421,26
639,00	1384,39
640,00	1329,42
641,00	1305,18
642,00	1277,46
643,00	1245,61
644,00	1204,37
645,00	1175,06
646,00	1166,91
647,00	1142,41
648,00	1124,04
649,00	1063,43
650,00	1045,21
651,00	1034,16
652,00	986,67
653,00	959,82
654,00	945,78
655,00	898,07
656,00	890,40
657,00	874,05
658,00	833,53
659,00	804,92
660,00	807,35
661,00	753,62
662,00	732,64
663,00	715,66
664,00	698,77
665,00	692,57
666,00	664,83
667,00	641,83
668,00	605,28
669,00	581,17
670,00	581,46
671,00	551,48
672,00	542,04
673,00	540,93
674,00	507,26
675,00	498,94
676,00	470,75
677,00	450,97
678,00	440,46
679,00	420,99
680,00	404,23
681,00	400,22
682,00	379,46
683,00	363,15
684,00	358,07
685,00	347,73
686,00	328,14
687,00	319,92
688,00	300,91
689,00	295,50
690,00	293,14
691,00	270,77
692,00	274,45
693,00	262,32
694,00	256,88
695,00	240,72
696,00	232,00
697,00	216,02
698,00	218,70
699,00	210,03
700,00	202,95
701,00	194,81
702,00	183,59
703,00	177,97
704,00	175,22
705,00	165,51
706,00	172,20
707,00	144,93
708,00	153,32
709,00	144,17
710,00	153,36
711,00	135,23
712,00	133,10
713,00	120,73
714,00	116,89
715,00	119,67
716,00	118,98
717,00	108,70
718,00	107,69
719,00	108,60
720,00	102,90
721,00	94,97
722,00	87,36
723,00	92,64
724,00	91,84
725,00	87,85
726,00	82,08
727,00	79,29
728,00	72,61
729,00	74,73
730,00	71,51
731,00	57,58
732,00	69,30
733,00	61,15
734,00	57,74
735,00	81,94
736,00	54,97
737,00	57,91
738,00	50,98
739,00	52,15
740,00	57,16
741,00	48,43
742,00	44,86
743,00	43,64
744,00	34,92
745,00	45,01
746,00	37,65
747,00	36,28
748,00	37,11
749,00	29,19
750,00	29,12
751,00	31,00
752,00	29,13
753,00	24,52
754,00	25,36
755,00	16,72
756,00	23,61
757,00	19,23
758,00	22,96
759,00	24,86
760,00	19,95
761,00	25,67
762,00	19,60
763,00	14,00
764,00	15,83
765,00	14,40
766,00	13,30
767,00	17,84
768,00	19,66
769,00	9,59
770,00	13,29
771,00	17,03
772,00	17,43
773,00	11,97
774,00	7,28
775,00	7,19
776,00	8,79
777,00	13,33
778,00	3,33
779,00	0,82
780,00	5,66
781,00	6,27
782,00	3,60
783,00	8,65
784,00	5,16
785,00	5,53
786,00	3,08
787,00	2,87
788,00	1,86
789,00	10,07
790,00	0,98
791,00	2,61
792,00	6,42
793,00	0,05
794,00	-1,98
795,00	3,06
796,00	8,71
797,00	3,64
798,00	1,31
799,00	1,45
800,00	7,25
801,00	0,90
802,00	7,26
803,00	-0,67
804,00	1,76
805,00	-2,72
806,00	10,06
807,00	-0,74
808,00	-1,23
809,00	0,06
810,00	2,22
811,00	-2,61
812,00	0,45
813,00	-3,66
814,00	-0,16
815,00	-2,20
816,00	2,09
817,00	-5,36
818,00	-0,64
819,00	-3,71
820,00	-4,42
821,00	-1,83
822,00	-1,00
823,00	-0,66
824,00	-2,63
825,00	0,97
826,00	3,73
827,00	-4,99
828,00	-7,05
829,00	-2,78
830,00	-7,93
831,00	1,83
832,00	-4,50
833,00	1,81
834,00	-1,90
835,00	-7,53
836,00	-5,77
837,00	-3,64
838,00	-5,21
839,00	-5,88
840,00	-2,67
841,00	6,85
842,00	-1,56
843,00	-4,49
844,00	-4,23
845,00	-7,68
846,00	0,20
847,00	-5,15
848,00	-3,94
849,00	-5,68
850,00	-6,12
851,00	-2,85
852,00	-1,28
853,00	-1,46
854,00	-7,80
855,00	-2,92
856,00	-5,13
857,00	-2,06
858,00	-10,30
859,00	-7,11
860,00	-7,46
861,00	0,33
862,00	-3,02
863,00	-7,55
864,00	-6,70
865,00	-9,98
866,00	1,97
867,00	-8,07
868,00	-2,65
869,00	-4,68
870,00	-6,11
871,00	-7,04
872,00	-6,45
873,00	-3,36
874,00	-5,98
875,00	-3,08
876,00	-2,14
877,00	-5,27
878,00	-2,44
879,00	0,63
880,00	-4,02
881,00	-1,34
882,00	-9,09
883,00	-5,55
884,00	-2,05
885,00	-4,83
886,00	-6,98
887,00	-4,46
888,00	-12,16
889,00	-5,65
890,00	-5,01
891,00	-8,37
892,00	-7,01
893,00	-3,73
894,00	-6,78
895,00	-1,19
896,00	-1,54
897,00	-5,45
898,00	10,05
899,00	-0,52
900,00	-10,01
901,00	-6,47
902,00	-10,14
903,00	4,00
904,00	-2,51
905,00	-4,16
906,00	-8,55
907,00	-7,78
908,00	-5,02
909,00	-9,17
910,00	-7,14
911,00	-2,01
912,00	-5,63
913,00	-8,71
914,00	-20,16
915,00	5,43
916,00	-8,08
917,00	-8,18
918,00	-5,11
919,00	-1,97
920,00	-0,33
921,00	-6,70
922,00	-3,07
923,00	-0,82
924,00	-14,63
925,00	-4,01
926,00	8,22
927,00	-10,13
928,00	-11,99
929,00	-8,25
930,00	-8,69
931,00	-6,51
932,00	-9,22
933,00	-6,51
934,00	-6,88
935,00	-3,57
936,00	-3,98
937,00	-7,92
938,00	-5,84
939,00	-6,73
940,00	-8,31
941,00	-1,63
942,00	0,11
943,00	-8,18
944,00	-9,12
945,00	-6,92
946,00	0,88
947,00	-7,24
948,00	-6,01
949,00	1,54
950,00	-8,28
951,00	-8,48
952,00	2,52
953,00	-4,47
954,00	-1,81
955,00	-18,50
956,00	-2,84
957,00	-8,49
958,00	-10,30
959,00	-7,78
960,00	-3,78
961,00	-11,45
962,00	-11,97
963,00	-2,19
964,00	-10,12
965,00	-3,41
966,00	-2,41
967,00	-8,86
968,00	-3,98
969,00	-7,64
970,00	-6,23
971,00	-5,24
972,00	-7,87
973,00	-17,52
974,00	-6,46
975,00	2,24
976,00	-3,92
977,00	-6,35
978,00	-3,62
979,00	-2,06
980,00	-0,87
981,00	-3,08
982,00	-10,96
983,00	-11,93
984,00	-9,88
985,00	-3,09
986,00	-10,77
987,00	-12,40
988,00	-9,14
989,00	-16,81
990,00	-8,01
991,00	-2,34
992,00	-2,70
993,00	-5,55
994,00	-10,76
995,00	-4,90
996,00	-5,57
997,00	-7,65
998,00	-7,17
999,00	-2,68
1000,00	1,66
>>>>>End Processed Spectral Data<<<<<
