SpectraSuite Datei
++++++++++++++++++++++++++++++++++++
Datum: Mon Feb 18 16:01:19 CET 2019
Benutzer: tu65fis
Dark-Spektrum vorhanden: Ja
Referenz-Spektrum vorhanden: Ja
Zahl der probierten Teilspektren: 1
Spektrometer: USB2G47534
Integrationszeit (usec): 100000 (USB2G47534)
Spektren Durchschnitt berechnet: 1 (USB2G47534)
Boxcar Glättung: 0 (USB2G47534)
Dunkelstromkorrektur: Nein (USB2G47534)
Puls/Lampe aktiviert: Nein (USB2G47534)
Correct for Detector Non-linearity: Nein (USB2G47534)
Streulichtkorrektur: Nein (USB2G47534)
Anzahl Pixel in verarbeitetem Spektrum: 651
>>>>>Begin Processed Spectral Data<<<<<
350,00	-5,01
351,00	-0,93
352,00	-2,22
353,00	-6,70
354,00	-5,80
355,00	-3,94
356,00	-5,86
357,00	2,26
358,00	-6,57
359,00	-3,43
360,00	-4,89
361,00	-4,13
362,00	2,20
363,00	0,01
364,00	3,85
365,00	-2,78
366,00	-3,94
367,00	0,06
368,00	6,31
369,00	-3,84
370,00	-1,24
371,00	1,98
372,00	3,75
373,00	2,17
374,00	-0,33
375,00	-4,30
376,00	2,58
377,00	0,71
378,00	5,69
379,00	-3,93
380,00	-2,38
381,00	-2,45
382,00	17,01
383,00	7,65
384,00	0,70
385,00	-3,70
386,00	-6,08
387,00	-5,48
388,00	-3,55
389,00	-2,15
390,00	-2,14
391,00	0,59
392,00	3,73
393,00	-0,95
394,00	-1,63
395,00	0,51
396,00	5,88
397,00	5,09
398,00	0,72
399,00	2,95
400,00	0,67
401,00	11,14
402,00	-2,61
403,00	4,14
404,00	8,57
405,00	8,25
406,00	7,15
407,00	10,53
408,00	14,73
409,00	20,96
410,00	18,24
411,00	22,56
412,00	20,37
413,00	31,02
414,00	23,08
415,00	39,69
416,00	47,47
417,00	52,61
418,00	73,03
419,00	80,57
420,00	101,31
421,00	106,44
422,00	127,85
423,00	160,76
424,00	191,78
425,00	210,04
426,00	258,07
427,00	281,62
428,00	318,33
429,00	365,85
430,00	467,33
431,00	499,49
432,00	592,11
433,00	674,64
434,00	770,94
435,00	893,86
436,00	1032,44
437,00	1072,52
438,00	1216,72
439,00	1393,57
440,00	1528,08
441,00	1716,88
442,00	1917,00
443,00	2131,19
444,00	2346,14
445,00	2562,07
446,00	2560,00
447,00	2773,38
448,00	3131,81
449,00	3265,32
450,00	3505,79
451,00	3417,44
452,00	3738,47
453,00	3851,12
454,00	3759,90
455,00	3833,04
456,00	3780,74
457,00	3585,73
458,00	3503,22
459,00	3494,44
460,00	3355,40
461,00	3023,73
462,00	2910,48
463,00	2715,30
464,00	2522,10
465,00	2491,29
466,00	2348,50
467,00	2226,89
468,00	2089,70
469,00	2075,80
470,00	1974,87
471,00	1860,88
472,00	1804,38
473,00	1774,02
474,00	1677,59
475,00	1588,79
476,00	1580,98
477,00	1451,63
478,00	1455,74
479,00	1361,16
480,00	1296,03
481,00	1268,66
482,00	1239,96
483,00	1218,16
484,00	1179,72
485,00	1165,26
486,00	1189,81
487,00	1185,81
488,00	1211,37
489,00	1230,76
490,00	1230,70
491,00	1237,75
492,00	1273,12
493,00	1298,81
494,00	1330,43
495,00	1337,11
496,00	1412,01
497,00	1457,00
498,00	1521,39
499,00	1556,93
500,00	1632,16
501,00	1707,88
502,00	1771,87
503,00	1846,66
504,00	1917,16
505,00	1990,46
506,00	2068,55
507,00	2170,79
508,00	2248,89
509,00	2351,39
510,00	2372,26
511,00	2487,83
512,00	2560,32
513,00	2604,00
514,00	2652,15
515,00	2744,21
516,00	2832,80
517,00	2865,23
518,00	2917,11
519,00	2982,72
520,00	3014,56
521,00	3040,04
522,00	3070,48
523,00	3116,01
524,00	3179,08
525,00	3204,05
526,00	3243,61
527,00	3230,63
528,00	3274,80
529,00	3322,75
530,00	3324,81
531,00	3347,33
532,00	3346,60
533,00	3376,63
534,00	3334,32
535,00	3397,45
536,00	3423,63
537,00	3424,13
538,00	3454,66
539,00	3430,83
540,00	3457,16
541,00	3503,80
542,00	3600,63
543,00	3621,20
544,00	3625,93
545,00	3617,28
546,00	3613,17
547,00	3522,35
548,00	3452,80
549,00	3426,33
550,00	3428,72
551,00	3418,51
552,00	3386,11
553,00	3390,15
554,00	3374,99
555,00	3344,30
556,00	3304,19
557,00	3308,82
558,00	3300,80
559,00	3277,11
560,00	3230,12
561,00	3209,51
562,00	3193,55
563,00	3161,11
564,00	3142,51
565,00	3114,57
566,00	3087,50
567,00	3065,30
568,00	3032,92
569,00	3019,56
570,00	2985,52
571,00	2975,10
572,00	2912,95
573,00	2900,63
574,00	2862,99
575,00	2854,84
576,00	2834,39
577,00	2835,93
578,00	2793,86
579,00	2746,67
580,00	2737,61
581,00	2725,32
582,00	2650,66
583,00	2651,78
584,00	2618,16
585,00	2577,51
586,00	2599,94
587,00	2570,49
588,00	2515,99
589,00	2497,05
590,00	2451,56
591,00	2443,16
592,00	2360,80
593,00	2362,89
594,00	2319,75
595,00	2265,22
596,00	2252,72
597,00	2225,45
598,00	2206,86
599,00	2155,17
600,00	2138,44
601,00	2097,45
602,00	2076,54
603,00	2022,41
604,00	2008,16
605,00	1953,76
606,00	1929,33
607,00	1900,20
608,00	1887,25
609,00	1842,31
610,00	1890,36
611,00	1966,12
612,00	1888,89
613,00	1824,11
614,00	1721,70
615,00	1679,84
616,00	1633,21
617,00	1586,96
618,00	1548,89
619,00	1506,90
620,00	1469,03
621,00	1439,66
622,00	1406,41
623,00	1352,68
624,00	1327,41
625,00	1311,40
626,00	1251,75
627,00	1218,98
628,00	1208,21
629,00	1155,28
630,00	1149,23
631,00	1123,83
632,00	1071,44
633,00	1051,82
634,00	1031,06
635,00	983,59
636,00	959,71
637,00	933,87
638,00	896,50
639,00	878,11
640,00	841,18
641,00	839,20
642,00	809,33
643,00	792,32
644,00	807,31
645,00	752,64
646,00	722,81
647,00	712,33
648,00	683,78
649,00	661,65
650,00	668,46
651,00	650,51
652,00	609,23
653,00	589,64
654,00	577,64
655,00	550,37
656,00	540,79
657,00	516,19
658,00	526,20
659,00	484,74
660,00	479,44
661,00	473,26
662,00	452,20
663,00	438,50
664,00	419,92
665,00	408,52
666,00	397,89
667,00	390,55
668,00	384,61
669,00	362,11
670,00	353,96
671,00	332,17
672,00	328,06
673,00	315,56
674,00	306,07
675,00	310,14
676,00	283,22
677,00	262,44
678,00	265,27
679,00	251,31
680,00	243,92
681,00	234,22
682,00	231,31
683,00	225,18
684,00	208,82
685,00	203,31
686,00	193,36
687,00	194,17
688,00	177,45
689,00	176,36
690,00	178,10
691,00	167,35
692,00	160,87
693,00	150,98
694,00	152,02
695,00	141,95
696,00	139,03
697,00	129,84
698,00	126,18
699,00	126,29
700,00	121,90
701,00	116,08
702,00	105,02
703,00	104,16
704,00	101,45
705,00	102,24
706,00	104,06
707,00	90,59
708,00	93,95
709,00	93,64
710,00	90,29
711,00	77,32
712,00	87,23
713,00	70,73
714,00	74,30
715,00	74,47
716,00	70,75
717,00	66,64
718,00	64,56
719,00	57,63
720,00	63,05
721,00	82,88
722,00	51,40
723,00	56,22
724,00	53,87
725,00	46,63
726,00	50,94
727,00	43,49
728,00	43,47
729,00	43,90
730,00	39,70
731,00	34,70
732,00	36,57
733,00	35,02
734,00	32,51
735,00	46,51
736,00	32,37
737,00	37,91
738,00	25,99
739,00	43,19
740,00	33,22
741,00	27,98
742,00	23,48
743,00	21,39
744,00	19,52
745,00	21,75
746,00	14,30
747,00	21,93
748,00	26,76
749,00	14,56
750,00	11,32
751,00	13,61
752,00	14,53
753,00	17,61
754,00	12,65
755,00	10,85
756,00	10,38
757,00	10,35
758,00	11,74
759,00	9,82
760,00	11,02
761,00	17,30
762,00	4,76
763,00	8,51
764,00	7,20
765,00	2,74
766,00	3,33
767,00	11,44
768,00	1,34
769,00	0,16
770,00	-0,59
771,00	11,45
772,00	5,52
773,00	0,81
774,00	6,12
775,00	3,53
776,00	2,12
777,00	9,73
778,00	3,57
779,00	1,73
780,00	6,31
781,00	-0,87
782,00	-2,85
783,00	6,12
784,00	-2,84
785,00	5,19
786,00	5,07
787,00	-0,72
788,00	-1,81
789,00	1,96
790,00	4,46
791,00	-1,13
792,00	3,83
793,00	-15,00
794,00	-2,75
795,00	0,97
796,00	3,80
797,00	0,83
798,00	-1,39
799,00	-2,07
800,00	4,21
801,00	-1,27
802,00	4,56
803,00	-5,30
804,00	-2,17
805,00	5,33
806,00	8,29
807,00	-1,04
808,00	-1,03
809,00	-8,97
810,00	2,63
811,00	-4,95
812,00	-3,38
813,00	-4,79
814,00	-0,76
815,00	-0,04
816,00	-1,39
817,00	-3,00
818,00	-0,81
819,00	-5,21
820,00	-6,06
821,00	-1,02
822,00	-3,01
823,00	0,98
824,00	-1,68
825,00	-1,79
826,00	-2,59
827,00	-11,11
828,00	-6,11
829,00	-2,52
830,00	-2,93
831,00	7,91
832,00	2,30
833,00	-0,83
834,00	1,67
835,00	-3,27
836,00	-8,39
837,00	-7,03
838,00	-8,00
839,00	-7,18
840,00	-3,11
841,00	7,02
842,00	-2,94
843,00	-4,69
844,00	4,01
845,00	-11,14
846,00	-3,70
847,00	-1,67
848,00	1,32
849,00	-6,87
850,00	-8,39
851,00	-7,70
852,00	-5,83
853,00	-2,53
854,00	-5,50
855,00	-0,62
856,00	-5,41
857,00	-6,55
858,00	-2,64
859,00	-2,69
860,00	-2,56
861,00	0,47
862,00	-0,03
863,00	-5,33
864,00	-7,59
865,00	-5,79
866,00	-1,06
867,00	-1,27
868,00	-7,32
869,00	1,41
870,00	-5,02
871,00	-12,20
872,00	-4,26
873,00	-1,86
874,00	-7,99
875,00	-2,80
876,00	-6,97
877,00	-2,94
878,00	-6,56
879,00	-0,56
880,00	-5,23
881,00	-11,22
882,00	-3,46
883,00	-8,32
884,00	-6,60
885,00	-5,97
886,00	-6,42
887,00	-8,68
888,00	-1,15
889,00	-4,55
890,00	0,33
891,00	1,10
892,00	-3,01
893,00	-6,97
894,00	-11,14
895,00	-1,33
896,00	-4,01
897,00	-5,04
898,00	-0,77
899,00	2,26
900,00	-6,08
901,00	-1,90
902,00	-9,77
903,00	4,29
904,00	0,19
905,00	-1,11
906,00	-6,75
907,00	-6,21
908,00	-4,01
909,00	-6,22
910,00	-8,06
911,00	-4,98
912,00	-5,82
913,00	-9,30
914,00	-14,02
915,00	-4,91
916,00	-8,86
917,00	-8,29
918,00	-2,57
919,00	-8,09
920,00	-2,25
921,00	-6,60
922,00	-0,00
923,00	-0,97
924,00	-8,64
925,00	-7,34
926,00	-4,59
927,00	-8,45
928,00	-9,09
929,00	-2,72
930,00	-5,52
931,00	-1,11
932,00	-7,39
933,00	-8,84
934,00	-11,92
935,00	-6,25
936,00	-7,87
937,00	-3,85
938,00	-6,68
939,00	-1,49
940,00	-3,61
941,00	-3,77
942,00	0,78
943,00	-6,46
944,00	-9,55
945,00	-6,47
946,00	-0,19
947,00	-0,56
948,00	-7,56
949,00	4,85
950,00	1,13
951,00	-6,60
952,00	6,27
953,00	-3,88
954,00	-3,73
955,00	-12,74
956,00	-5,53
957,00	-5,09
958,00	-8,50
959,00	-10,65
960,00	-0,13
961,00	-7,56
962,00	-8,08
963,00	1,11
964,00	-7,54
965,00	0,54
966,00	-2,63
967,00	-6,03
968,00	-3,95
969,00	-9,76
970,00	-5,75
971,00	0,25
972,00	-5,05
973,00	-22,04
974,00	-9,31
975,00	-2,03
976,00	-11,03
977,00	-6,82
978,00	0,01
979,00	-2,05
980,00	-8,00
981,00	-0,95
982,00	-6,69
983,00	-2,90
984,00	-13,64
985,00	-4,99
986,00	-11,66
987,00	-11,04
988,00	-8,08
989,00	-6,56
990,00	-7,04
991,00	-3,15
992,00	-4,17
993,00	-6,09
994,00	-3,36
995,00	-7,32
996,00	-6,39
997,00	-6,68
998,00	-5,79
999,00	-5,03
1000,00	-3,94
>>>>>End Processed Spectral Data<<<<<
