SpectraSuite Datei
++++++++++++++++++++++++++++++++++++
Datum: Mon Feb 18 15:03:37 CET 2019
Benutzer: tu65fis
Dark-Spektrum vorhanden: Ja
Referenz-Spektrum vorhanden: Ja
Zahl der probierten Teilspektren: 1
Spektrometer: USB2G47534
Integrationszeit (usec): 10000 (USB2G47534)
Spektren Durchschnitt berechnet: 1 (USB2G47534)
Boxcar Glättung: 0 (USB2G47534)
Dunkelstromkorrektur: Nein (USB2G47534)
Puls/Lampe aktiviert: Nein (USB2G47534)
Correct for Detector Non-linearity: Nein (USB2G47534)
Streulichtkorrektur: Nein (USB2G47534)
Anzahl Pixel in verarbeitetem Spektrum: 651
>>>>>Begin Processed Spectral Data<<<<<
350,00	-0,000
351,00	-0,000
352,00	-0,000
353,00	-0,000
354,00	1,720
355,00	-0,274
356,00	0,166
357,00	-0,000
358,00	-0,000
359,00	-0,000
360,00	0,309
361,00	-0,000
362,00	-0,000
363,00	-1,847
364,00	-0,000
365,00	-0,056
366,00	-0,704
367,00	-0,000
368,00	1,105
369,00	0,176
370,00	-0,000
371,00	-0,000
372,00	-0,000
373,00	-0,000
374,00	-0,000
375,00	-0,656
376,00	0,646
377,00	0,563
378,00	0,513
379,00	-0,000
380,00	-0,000
381,00	0,687
382,00	0,360
383,00	0,136
384,00	0,023
385,00	-1,153
386,00	-0,000
387,00	-0,000
388,00	-0,000
389,00	0,243
390,00	-0,000
391,00	0,376
392,00	0,020
393,00	-0,000
394,00	-0,000
395,00	0,103
396,00	0,670
397,00	1,088
398,00	-0,000
399,00	-0,000
400,00	-0,000
401,00	0,998
402,00	-0,000
403,00	1,581
404,00	1,461
405,00	-0,000
406,00	-0,000
407,00	1,493
408,00	1,121
409,00	1,333
410,00	1,833
411,00	1,709
412,00	-0,000
413,00	2,348
414,00	3,180
415,00	-0,000
416,00	1,641
417,00	-0,000
418,00	1,560
419,00	2,700
420,00	-0,000
421,00	-0,000
422,00	-0,000
423,00	-0,000
424,00	1,388
425,00	-0,000
426,00	-0,000
427,00	-0,000
428,00	-0,000
429,00	-0,000
430,00	2,102
431,00	1,673
432,00	-0,000
433,00	2,819
434,00	1,692
435,00	-0,000
436,00	-0,000
437,00	-0,000
438,00	-0,000
439,00	-0,000
440,00	2,775
441,00	-0,000
442,00	2,047
443,00	3,262
444,00	2,240
445,00	-0,000
446,00	-0,000
447,00	2,344
448,00	-0,000
449,00	2,526
450,00	1,958
451,00	-0,000
452,00	-0,000
453,00	2,447
454,00	1,983
455,00	1,992
456,00	-0,000
457,00	2,674
458,00	-0,000
459,00	-0,000
460,00	-0,000
461,00	3,936
462,00	-0,000
463,00	-0,000
464,00	2,537
465,00	2,483
466,00	2,221
467,00	-0,000
468,00	-0,000
469,00	2,359
470,00	2,689
471,00	-0,000
472,00	-0,000
473,00	3,571
474,00	-0,000
475,00	-0,000
476,00	2,126
477,00	-0,000
478,00	2,416
479,00	2,564
480,00	-0,000
481,00	2,286
482,00	3,066
483,00	-0,000
484,00	-0,000
485,00	3,321
486,00	2,586
487,00	2,576
488,00	2,306
489,00	-0,000
490,00	-0,000
491,00	-0,000
492,00	4,054
493,00	2,495
494,00	3,580
495,00	3,079
496,00	-0,000
497,00	-0,000
498,00	-0,000
499,00	2,686
500,00	-0,000
501,00	2,955
502,00	-0,000
503,00	-0,000
504,00	2,644
505,00	-0,000
506,00	-0,000
507,00	3,057
508,00	-0,000
509,00	-0,000
510,00	3,489
511,00	-0,000
512,00	-0,000
513,00	3,302
514,00	4,591
515,00	2,757
516,00	3,199
517,00	-0,000
518,00	-0,000
519,00	-0,000
520,00	-0,000
521,00	-0,000
522,00	2,897
523,00	-0,000
524,00	2,735
525,00	2,998
526,00	-0,000
527,00	-0,000
528,00	-0,000
529,00	-0,000
530,00	-0,000
531,00	-0,000
532,00	-0,000
533,00	-0,000
534,00	-0,000
535,00	2,946
536,00	-0,000
537,00	-0,000
538,00	-0,000
539,00	-0,000
540,00	-0,000
541,00	-0,000
542,00	-0,000
543,00	3,675
544,00	3,243
545,00	2,939
546,00	-0,000
547,00	3,173
548,00	2,629
549,00	-0,000
550,00	3,159
551,00	4,502
552,00	-0,000
553,00	-0,000
554,00	3,166
555,00	-0,000
556,00	-0,000
557,00	3,726
558,00	2,764
559,00	-0,000
560,00	-0,000
561,00	-0,000
562,00	3,175
563,00	-0,000
564,00	-0,000
565,00	-0,000
566,00	-0,000
567,00	5,901
568,00	-0,000
569,00	-0,000
570,00	2,929
571,00	2,926
572,00	-0,000
573,00	-0,000
574,00	-0,000
575,00	-0,000
576,00	3,347
577,00	-0,000
578,00	-0,000
579,00	4,766
580,00	-0,000
581,00	3,278
582,00	-0,000
583,00	-0,000
584,00	-0,000
585,00	3,781
586,00	2,797
587,00	2,891
588,00	-0,000
589,00	2,738
590,00	3,132
591,00	2,676
592,00	-0,000
593,00	-0,000
594,00	3,301
595,00	-0,000
596,00	-0,000
597,00	3,076
598,00	2,558
599,00	3,679
600,00	2,987
601,00	3,327
602,00	3,272
603,00	-0,000
604,00	-0,000
605,00	-0,000
606,00	3,430
607,00	-0,000
608,00	-0,000
609,00	-0,000
610,00	3,413
611,00	-0,000
612,00	-0,000
613,00	2,723
614,00	-0,000
615,00	-0,000
616,00	-0,000
617,00	-0,000
618,00	4,001
619,00	-0,000
620,00	-0,000
621,00	-0,000
622,00	2,782
623,00	-0,000
624,00	-0,000
625,00	3,927
626,00	3,079
627,00	-0,000
628,00	-0,000
629,00	3,188
630,00	3,947
631,00	-0,000
632,00	-0,000
633,00	3,839
634,00	-0,000
635,00	-0,000
636,00	-0,000
637,00	-0,000
638,00	3,518
639,00	3,562
640,00	-0,000
641,00	3,071
642,00	3,241
643,00	3,566
644,00	-0,000
645,00	2,817
646,00	-0,000
647,00	-0,000
648,00	2,633
649,00	-0,000
650,00	2,675
651,00	3,191
652,00	4,699
653,00	-0,000
654,00	3,230
655,00	-0,000
656,00	-0,000
657,00	4,589
658,00	2,884
659,00	2,908
660,00	3,045
661,00	-0,000
662,00	-0,000
663,00	3,180
664,00	2,957
665,00	2,765
666,00	3,105
667,00	2,736
668,00	2,803
669,00	2,909
670,00	3,464
671,00	2,666
672,00	-0,000
673,00	2,506
674,00	3,194
675,00	2,645
676,00	3,008
677,00	3,418
678,00	2,762
679,00	-0,000
680,00	3,493
681,00	3,010
682,00	2,524
683,00	2,862
684,00	4,181
685,00	3,753
686,00	2,795
687,00	2,582
688,00	-0,000
689,00	3,001
690,00	2,748
691,00	2,726
692,00	2,599
693,00	2,952
694,00	2,701
695,00	-0,000
696,00	2,544
697,00	3,494
698,00	2,332
699,00	2,937
700,00	2,931
701,00	2,513
702,00	2,679
703,00	-0,000
704,00	2,510
705,00	2,686
706,00	2,376
707,00	2,844
708,00	2,257
709,00	2,435
710,00	2,367
711,00	2,715
712,00	2,649
713,00	2,462
714,00	2,391
715,00	2,175
716,00	2,332
717,00	2,459
718,00	2,145
719,00	2,275
720,00	2,152
721,00	2,298
722,00	2,218
723,00	2,118
724,00	1,964
725,00	1,999
726,00	1,976
727,00	1,963
728,00	1,926
729,00	1,806
730,00	1,826
731,00	1,768
732,00	1,661
733,00	1,668
734,00	1,589
735,00	1,507
736,00	1,505
737,00	1,408
738,00	1,382
739,00	1,319
740,00	1,291
741,00	1,248
742,00	1,213
743,00	1,154
744,00	1,113
745,00	1,041
746,00	1,002
747,00	0,970
748,00	0,923
749,00	0,886
750,00	0,848
751,00	0,793
752,00	0,771
753,00	0,718
754,00	0,671
755,00	0,672
756,00	0,629
757,00	0,599
758,00	0,559
759,00	0,525
760,00	0,504
761,00	0,462
762,00	0,450
763,00	0,412
764,00	0,404
765,00	0,365
766,00	0,355
767,00	0,341
768,00	0,312
769,00	0,303
770,00	0,280
771,00	0,271
772,00	0,255
773,00	0,253
774,00	0,224
775,00	0,207
776,00	0,197
777,00	0,192
778,00	0,190
779,00	0,172
780,00	0,175
781,00	0,156
782,00	0,150
783,00	0,142
784,00	0,139
785,00	0,133
786,00	0,137
787,00	0,114
788,00	0,108
789,00	0,099
790,00	0,093
791,00	0,098
792,00	0,094
793,00	0,087
794,00	0,091
795,00	0,086
796,00	0,090
797,00	0,079
798,00	0,070
799,00	0,072
800,00	0,082
801,00	0,073
802,00	0,068
803,00	0,070
804,00	0,058
805,00	0,071
806,00	0,058
807,00	0,061
808,00	0,065
809,00	0,069
810,00	0,060
811,00	0,062
812,00	0,055
813,00	0,056
814,00	0,060
815,00	0,052
816,00	0,047
817,00	0,057
818,00	0,056
819,00	0,048
820,00	0,048
821,00	0,047
822,00	0,053
823,00	0,051
824,00	0,048
825,00	0,053
826,00	0,050
827,00	0,047
828,00	0,053
829,00	0,044
830,00	0,046
831,00	0,045
832,00	0,035
833,00	0,030
834,00	0,043
835,00	0,041
836,00	0,035
837,00	0,033
838,00	0,040
839,00	0,042
840,00	0,048
841,00	0,046
842,00	0,036
843,00	0,049
844,00	0,033
845,00	0,038
846,00	0,032
847,00	0,036
848,00	0,045
849,00	0,036
850,00	0,034
851,00	0,044
852,00	0,034
853,00	0,040
854,00	0,037
855,00	0,048
856,00	0,042
857,00	0,036
858,00	0,036
859,00	0,052
860,00	0,039
861,00	0,047
862,00	0,044
863,00	0,043
864,00	0,039
865,00	0,033
866,00	0,034
867,00	0,033
868,00	0,032
869,00	0,046
870,00	0,035
871,00	0,034
872,00	0,055
873,00	0,045
874,00	0,024
875,00	0,038
876,00	0,053
877,00	0,035
878,00	0,029
879,00	0,045
880,00	0,044
881,00	0,036
882,00	0,019
883,00	0,036
884,00	0,035
885,00	0,025
886,00	0,036
887,00	0,038
888,00	0,026
889,00	0,030
890,00	0,030
891,00	0,038
892,00	0,038
893,00	0,040
894,00	0,047
895,00	0,044
896,00	0,032
897,00	0,035
898,00	0,029
899,00	0,033
900,00	0,033
901,00	0,046
902,00	0,034
903,00	0,047
904,00	0,031
905,00	0,045
906,00	0,046
907,00	0,041
908,00	0,043
909,00	0,047
910,00	0,041
911,00	0,039
912,00	0,047
913,00	0,058
914,00	0,055
915,00	0,051
916,00	0,061
917,00	0,035
918,00	0,042
919,00	0,060
920,00	0,061
921,00	0,057
922,00	0,055
923,00	0,064
924,00	0,071
925,00	0,051
926,00	0,054
927,00	0,045
928,00	0,038
929,00	0,060
930,00	0,065
931,00	0,044
932,00	0,058
933,00	0,067
934,00	0,062
935,00	0,081
936,00	0,059
937,00	0,069
938,00	0,064
939,00	0,058
940,00	0,060
941,00	0,059
942,00	0,063
943,00	0,062
944,00	0,079
945,00	0,072
946,00	0,047
947,00	0,095
948,00	0,081
949,00	0,072
950,00	0,076
951,00	0,063
952,00	0,054
953,00	0,066
954,00	0,051
955,00	0,070
956,00	0,076
957,00	0,039
958,00	0,074
959,00	0,075
960,00	0,058
961,00	0,066
962,00	0,055
963,00	0,067
964,00	0,083
965,00	0,051
966,00	0,039
967,00	0,051
968,00	0,053
969,00	0,077
970,00	0,061
971,00	0,034
972,00	0,058
973,00	0,048
974,00	0,051
975,00	0,084
976,00	0,060
977,00	0,061
978,00	0,053
979,00	0,042
980,00	0,054
981,00	0,052
982,00	0,065
983,00	0,061
984,00	0,061
985,00	0,062
986,00	0,057
987,00	0,029
988,00	0,086
989,00	0,081
990,00	0,047
991,00	-0,008
992,00	0,044
993,00	0,074
994,00	0,085
995,00	0,054
996,00	0,027
997,00	0,064
998,00	0,106
999,00	0,070
1000,00	0,039
>>>>>End Processed Spectral Data<<<<<
